Freq (Hz),Psuc (psi),Tsuc (F),Pdis (psi)
150,49.808,49.099,199.383
160,49.86,49.131,199.161
170,49.825,49.207,199.134
180,49.752,49.122,199.221
190,49.703,49.123,199.286
200,49.783,48.965,199.277
210,49.691,48.918,199.151
200,49.775,49.018,139.026
200,49.783,49.221,160.863
200,49.789,48.968,185.887
200,49.741,49.036,213.041
200,49.708,49.14,243.761
200,48.818,48.098,204.613
150,49.706,48.867,151.814
